Wavelength	n	k
0.310000	1.123000	0.682100
0.310700	1.096000	0.674800
0.311500	1.068000	0.668300
0.312300	1.040000	0.662700
0.313100	1.012000	0.657900
0.313900	0.983900	0.654000
0.314700	0.955200	0.651000
0.315500	0.926100	0.648900
0.316300	0.896700	0.647800
0.317100	0.867000	0.647600
0.317900	0.837000	0.648500
0.318700	0.806700	0.650400
0.319500	0.776200	0.653400
0.320400	0.745600	0.657600
0.321200	0.714700	0.663100
0.322000	0.683800	0.669800
0.322900	0.653000	0.677900
0.323700	0.622200	0.687300
0.324600	0.591800	0.698200
0.325400	0.561700	0.710500
0.326300	0.532100	0.724100
0.327100	0.503200	0.739200
0.328000	0.475000	0.755500
0.328900	0.447800	0.773000
0.329700	0.421600	0.791600
0.330600	0.396600	0.811100
0.331500	0.372600	0.831500
0.332400	0.349900	0.852500
0.333300	0.328300	0.874000
0.334200	0.307900	0.895900
0.335100	0.288600	0.918200
0.336000	0.270400	0.940600
0.336900	0.253200	0.963100
0.337800	0.237000	0.985700
0.338800	0.221700	1.008000
0.339700	0.207300	1.031000
0.340600	0.193700	1.053000
0.341600	0.180800	1.075000
0.342500	0.168500	1.097000
0.343400	0.157000	1.119000
0.344400	0.146000	1.141000
0.345400	0.135500	1.162000
0.346300	0.125600	1.184000
0.347300	0.116100	1.205000
0.348300	0.107100	1.226000
0.349300	0.098447	1.246000
0.350200	0.090193	1.267000
0.351200	0.082290	1.287000
0.352200	0.074714	1.307000
0.353200	0.067442	1.327000
0.354200	0.060456	1.347000
0.355300	0.053736	1.367000
0.356300	0.047266	1.386000
0.357300	0.041029	1.405000
0.358300	0.035012	1.424000
0.359400	0.029202	1.443000
0.360400	0.023585	1.462000
0.361500	0.018150	1.481000
0.362500	0.012888	1.499000
0.363600	0.007787	1.518000
0.364700	0.002840	1.536000
0.365700	0.001964	-1.554000
0.366800	0.006630	-1.572000
0.367900	0.011168	-1.590000
0.369000	0.015583	-1.608000
0.370100	0.019882	-1.625000
0.371200	0.024072	-1.643000
0.372300	0.028157	-1.661000
0.373400	0.032144	-1.678000
0.374600	0.036036	-1.695000
0.375700	0.039840	-1.713000
0.376900	0.043558	-1.730000
0.378000	0.047196	-1.747000
0.379200	0.050758	-1.764000
0.380300	0.054246	-1.781000
0.381500	0.057665	-1.798000
0.382700	0.061017	-1.815000
0.383900	0.064307	-1.832000
0.385000	0.067536	-1.849000
0.386200	0.070708	-1.865000
0.387500	0.073826	-1.882000
0.388700	0.076892	-1.899000
0.389900	0.079907	-1.915000
0.391100	0.082876	-1.932000
0.392400	0.085799	-1.949000
0.393600	0.088680	-1.965000
0.394900	0.091519	-1.982000
0.396100	0.094319	-1.998000
0.397400	0.097082	-2.015000
0.398700	0.099810	-2.031000
0.400000	0.102500	-2.048000
0.401200	0.105200	-2.064000
0.402500	0.107800	-2.080000
0.403900	0.110400	-2.097000
0.405200	0.113000	-2.113000
0.406500	0.115500	-2.130000
0.407800	0.118000	-2.146000
0.409200	0.120500	-2.162000
0.410500	0.123000	-2.179000
0.411900	0.125500	-2.195000
0.413300	0.127900	-2.212000
0.414700	0.130300	-2.228000
0.416100	0.132700	-2.244000
0.417500	0.135100	-2.261000
0.418900	0.137500	-2.277000
0.420300	0.139800	-2.294000
0.421700	0.142100	-2.310000
0.423200	0.144500	-2.327000
0.424600	0.146800	-2.343000
0.426100	0.149100	-2.360000
0.427500	0.151300	-2.377000
0.429000	0.153600	-2.393000
0.430500	0.155900	-2.410000
0.432000	0.158100	-2.427000
0.433500	0.160400	-2.443000
0.435000	0.162600	-2.460000
0.436600	0.164900	-2.477000
0.438100	0.167100	-2.494000
0.439700	0.169300	-2.510000
0.441200	0.171600	-2.527000
0.442800	0.173800	-2.544000
0.444400	0.176000	-2.561000
0.446000	0.178200	-2.578000
0.447600	0.180400	-2.595000
0.449200	0.182600	-2.612000
0.450900	0.184800	-2.630000
0.452500	0.187100	-2.647000
0.454200	0.189300	-2.664000
0.455800	0.191500	-2.681000
0.457500	0.193700	-2.699000
0.459200	0.195900	-2.716000
0.460900	0.198100	-2.734000
0.462600	0.200400	-2.751000
0.464400	0.202600	-2.769000
0.466100	0.204800	-2.786000
0.467900	0.207100	-2.804000
0.469600	0.209300	-2.822000
0.471400	0.211600	-2.840000
0.473200	0.213800	-2.858000
0.475000	0.216100	-2.876000
0.476900	0.218400	-2.894000
0.478700	0.220700	-2.912000
0.480600	0.223000	-2.930000
0.482400	0.225300	-2.949000
0.484300	0.227600	-2.967000
0.486200	0.229900	-2.986000
0.488100	0.232200	-3.004000
0.490100	0.234600	-3.023000
0.492000	0.236900	-3.042000
0.494000	0.239300	-3.061000
0.495900	0.241700	-3.079000
0.497900	0.244100	-3.098000
0.499900	0.246500	-3.118000
0.502000	0.248900	-3.137000
0.504000	0.251400	-3.156000
0.506100	0.253800	-3.176000
0.508100	0.256300	-3.195000
0.510200	0.258800	-3.215000
0.512300	0.261300	-3.234000
0.514500	0.263900	-3.254000
0.516600	0.266400	-3.274000
0.518800	0.269000	-3.294000
0.520900	0.271600	-3.314000
0.523100	0.274200	-3.335000
0.525400	0.276800	-3.355000
0.527600	0.279500	-3.376000
0.529900	0.282100	-3.396000
0.532100	0.284800	-3.417000
0.534400	0.287600	-3.438000
0.536700	0.290300	-3.459000
0.539100	0.293100	-3.480000
0.541400	0.295900	-3.501000
0.543800	0.298700	-3.523000
0.546200	0.301500	-3.544000
0.548600	0.304400	-3.566000
0.551000	0.307300	-3.588000
0.553500	0.310200	-3.610000
0.556000	0.313200	-3.632000
0.558500	0.316200	-3.654000
0.561000	0.319200	-3.676000
0.563600	0.322300	-3.699000
0.566100	0.325300	-3.721000
0.568700	0.328500	-3.744000
0.571400	0.331600	-3.767000
0.574000	0.334800	-3.791000
0.576700	0.338000	-3.814000
0.579400	0.341300	-3.837000
0.582100	0.344600	-3.861000
0.584800	0.347900	-3.885000
0.587600	0.351300	-3.909000
0.590400	0.354700	-3.933000
0.593200	0.358100	-3.957000
0.596100	0.361600	-3.982000
0.599000	0.365200	-4.007000
0.601900	0.368700	-4.032000
0.604800	0.372400	-4.057000
0.607800	0.376000	-4.082000
0.610800	0.379700	-4.108000
0.613800	0.383500	-4.133000
0.616800	0.387300	-4.159000
0.619900	0.391200	-4.185000
0.623000	0.395100	-4.212000
0.626200	0.399000	-4.238000
0.629400	0.403000	-4.265000
0.632600	0.407100	-4.292000
0.635800	0.411200	-4.319000
0.639100	0.415400	-4.347000
0.642400	0.419600	-4.375000
0.645800	0.423900	-4.402000
0.649100	0.428300	-4.431000
0.652600	0.432700	-4.459000
0.656000	0.437200	-4.488000
0.659500	0.441700	-4.517000
0.663000	0.446300	-4.546000
0.666600	0.451000	-4.575000
0.670200	0.455700	-4.605000
0.673800	0.460500	-4.635000
0.677500	0.465400	-4.665000
0.681200	0.470400	-4.696000
0.685000	0.475400	-4.726000
0.688800	0.480500	-4.758000
0.692700	0.485700	-4.789000
0.696500	0.490900	-4.821000
0.700500	0.496300	-4.853000
0.704500	0.501700	-4.885000
0.708500	0.507200	-4.918000
0.712600	0.512800	-4.950000
0.716700	0.518500	-4.984000
0.720800	0.524300	-5.017000
0.725100	0.530200	-5.051000
0.729300	0.536200	-5.086000
0.733600	0.542300	-5.120000
0.738000	0.548400	-5.155000
0.742400	0.554700	-5.190000
0.746900	0.561100	-5.226000
0.751400	0.567600	-5.262000
0.756000	0.574200	-5.299000
0.760600	0.580900	-5.336000
0.765300	0.587700	-5.373000
0.770100	0.594700	-5.410000
0.774900	0.601800	-5.448000
0.779800	0.609000	-5.487000
0.784700	0.616300	-5.526000
0.789700	0.623800	-5.565000
0.794800	0.631400	-5.605000
0.799900	0.639100	-5.645000
0.805100	0.647000	-5.686000
0.810400	0.655000	-5.727000
0.815700	0.663200	-5.769000
0.821100	0.671500	-5.811000
0.826600	0.680000	-5.853000
0.1907	0.6926	1.122
0.1910	0.6960	1.127
0.1913	0.6995	1.131
0.1916	0.7029	1.135
0.1919	0.7065	1.139
0.1922	0.7100	1.144
0.1925	0.7136	1.148
0.1928	0.7172	1.152
0.1931	0.7208	1.156
0.1934	0.7244	1.160
0.1937	0.7281	1.164
0.1940	0.7318	1.168
0.1943	0.7355	1.171
0.1946	0.7392	1.175
0.1949	0.7430	1.179
0.1953	0.7468	1.182
0.1956	0.7506	1.186
0.1959	0.7544	1.190
0.1962	0.7582	1.193
0.1965	0.7621	1.197
0.1968	0.7659	1.200
0.1971	0.7698	1.203
0.1974	0.7737	1.206
0.1977	0.7776	1.210
0.1981	0.7815	1.213
0.1984	0.7854	1.216
0.1987	0.7893	1.219
0.1990	0.7932	1.222
0.1993	0.7971	1.225
0.1997	0.8011	1.228
0.2000	0.8050	1.230
0.2003	0.8089	1.233
0.2006	0.8128	1.236
0.2009	0.8168	1.238
0.2013	0.8207	1.241
0.2016	0.8246	1.243
0.2019	0.8285	1.246
0.2023	0.8324	1.248
0.2026	0.8363	1.250
0.2029	0.8401	1.252
0.2033	0.8440	1.255
0.2036	0.8478	1.257
0.2039	0.8516	1.259
0.2043	0.8554	1.261
0.2046	0.8592	1.263
0.2049	0.8629	1.264
0.2053	0.8667	1.266
0.2056	0.8704	1.268
0.2060	0.8740	1.270
0.2063	0.8777	1.271
0.2066	0.8813	1.273
0.2070	0.8848	1.274
0.2073	0.8883	1.276
0.2077	0.8918	1.277
0.2080	0.8953	1.279
0.2084	0.8987	1.280
0.2087	0.9020	1.281
0.2091	0.9054	1.282
0.2094	0.9086	1.283
0.2098	0.9119	1.285
0.2101	0.9150	1.286
0.2105	0.9181	1.287
0.2109	0.9212	1.288
0.2112	0.9242	1.289
0.2116	0.9272	1.290
0.2119	0.9300	1.290
0.2123	0.9329	1.291
0.2127	0.9357	1.292
0.2130	0.9384	1.293
0.2134	0.9410	1.294
0.2138	0.9436	1.294
0.2141	0.9461	1.295
0.2145	0.9486	1.296
0.2149	0.9509	1.296
0.2153	0.9533	1.297
0.2156	0.9555	1.298
0.2160	0.9577	1.298
0.2164	0.9598	1.299
0.2168	0.9618	1.300
0.2171	0.9638	1.300
0.2175	0.9657	1.301
0.2179	0.9676	1.302
0.2183	0.9693	1.303
0.2187	0.9710	1.303
0.2191	0.9727	1.304
0.2194	0.9742	1.305
0.2198	0.9757	1.306
0.2202	0.9771	1.306
0.2206	0.9785	1.307
0.2210	0.9798	1.308
0.2214	0.9811	1.309
0.2218	0.9822	1.310
0.2222	0.9834	1.311
0.2226	0.9844	1.312
0.2230	0.9854	1.313
0.2234	0.9864	1.314
0.2238	0.9873	1.316
0.2242	0.9882	1.317
0.2246	0.9890	1.318
0.2250	0.9898	1.320
0.2254	0.9906	1.321
0.2258	0.9913	1.323
0.2263	0.9920	1.325
0.2267	0.9927	1.326
0.2271	0.9933	1.328
0.2275	0.9940	1.330
0.2279	0.9946	1.332
0.2283	0.9952	1.334
0.2288	0.9958	1.336
0.2292	0.9965	1.339
0.2296	0.9971	1.341
0.2300	0.9978	1.343
0.2305	0.9985	1.346
0.2309	0.9992	1.349
0.2313	0.9999	1.352
0.2317	1.001	1.354
0.2322	1.002	1.357
0.2326	1.002	1.360
0.2331	1.003	1.364
0.2335	1.004	1.367
0.2339	1.006	1.370
0.2344	1.007	1.374
0.2348	1.008	1.377
0.2353	1.009	1.381
0.2357	1.011	1.384
0.2362	1.012	1.388
0.2366	1.014	1.392
0.2371	1.016	1.396
0.2375	1.018	1.400
0.2380	1.020	1.404
0.2384	1.022	1.408
0.2389	1.025	1.412
0.2394	1.027	1.416
0.2398	1.030	1.421
0.2403	1.033	1.425
0.2407	1.036	1.429
0.2412	1.040	1.433
0.2417	1.043	1.437
0.2422	1.047	1.441
0.2426	1.051	1.446
0.2431	1.055	1.450
0.2436	1.059	1.454
0.2441	1.063	1.458
0.2445	1.068	1.461
0.2450	1.073	1.465
0.2455	1.078	1.469
0.2460	1.083	1.472
0.2465	1.089	1.476
0.2470	1.095	1.479
0.2475	1.100	1.482
0.2480	1.106	1.484
0.2485	1.113	1.487
0.2490	1.119	1.489
0.2495	1.126	1.491
0.2500	1.132	1.493
0.2505	1.139	1.495
0.2510	1.146	1.496
0.2515	1.153	1.497
0.2520	1.160	1.498
0.2525	1.167	1.498
0.2530	1.174	1.498
0.2535	1.181	1.498
0.2541	1.188	1.497
0.2546	1.195	1.496
0.2551	1.202	1.495
0.2556	1.209	1.493
0.2562	1.216	1.491
0.2567	1.222	1.489
0.2572	1.229	1.486
0.2578	1.235	1.483
0.2583	1.241	1.480
0.2588	1.247	1.477
0.2594	1.252	1.473
0.2599	1.257	1.469
0.2605	1.262	1.465
0.2610	1.267	1.461
0.2616	1.271	1.456
0.2621	1.275	1.452
0.2627	1.278	1.447
0.2632	1.281	1.442
0.2638	1.284	1.438
0.2644	1.287	1.433
0.2649	1.289	1.428
0.2655	1.290	1.424
0.2661	1.292	1.420
0.2666	1.293	1.416
0.2672	1.293	1.412
0.2678	1.294	1.409
0.2684	1.294	1.405
0.2689	1.294	1.403
0.2695	1.294	1.400
0.2701	1.294	1.398
0.2707	1.294	1.397
0.2713	1.294	1.396
0.2719	1.294	1.395
0.2725	1.294	1.395
0.2731	1.294	1.395
0.2737	1.295	1.396
0.2743	1.297	1.398
0.2749	1.299	1.399
0.2755	1.301	1.401
0.2761	1.305	1.404
0.2768	1.309	1.406
0.2774	1.314	1.409
0.2780	1.321	1.411
0.2786	1.328	1.413
0.2792	1.336	1.415
0.2799	1.346	1.417
0.2805	1.357	1.418
0.2811	1.369	1.417
0.2818	1.382	1.416
0.2824	1.396	1.413
0.2831	1.411	1.409
0.2837	1.426	1.403
0.2844	1.442	1.395
0.2850	1.459	1.385
0.2857	1.475	1.372
0.2863	1.491	1.358
0.2870	1.506	1.341
0.2877	1.520	1.322
0.2883	1.532	1.301
0.2890	1.543	1.278
0.2897	1.552	1.253
0.2904	1.559	1.227
0.2910	1.564	1.200
0.2917	1.566	1.172
0.2924	1.566	1.144
0.2931	1.564	1.115
0.2938	1.559	1.087
0.2945	1.553	1.059
0.2952	1.544	1.031
0.2959	1.533	1.004
0.2966	1.520	0.9777
0.2973	1.506	0.9524
0.2980	1.490	0.9281
0.2988	1.473	0.9048
0.2995	1.455	0.8826
0.3002	1.435	0.8616
0.3009	1.415	0.8416
0.3017	1.394	0.8228
0.3024	1.372	0.8050
0.3031	1.349	0.7883
0.3039	1.326	0.7727
0.3046	1.302	0.7581
0.3054	1.278	0.7444
0.3061	1.253	0.7318
0.3069	1.228	0.7200
0.3077	1.202	0.7092
0.3084	1.176	0.6993
0.3092	1.150	0.6903
